Time (s),Linear Acceleration x (m/s^2),Linear Acceleration y (m/s^2),Linear Acceleration z (m/s^2),Absolute acceleration (m/s^2)
0.035454315,0.158834218978882,0.00640863180160523,0.00862407684326172,0.159197218510872
0.045454315,0.472959518432617,0.0027773529291153,0.102375984191895,0.483920718614697
0.055429315,0.906606435775757,-0.00254061818122864,0.250972747802734,0.940706651550003
0.065432815,1.42307066917419,-0.00954246520996094,0.458383560180664,1.49510423594814
0.075432815,1.98543834686279,-0.0180295705795288,0.724504470825195,2.11357451320133
0.085432815,2.56203079223633,-0.0279969871044159,1.04502868652344,2.76710508786908
0.095432815,3.12825345993042,-0.039125844836235,1.41230297088623,3.43250640536545
0.105432815,3.66671180725098,-0.0509881377220154,1.81672334671021,4.09241481109919
0.115432815,4.16622304916382,-0.0634974837303162,2.2479739189148,4.73443060630791
0.125432815,4.62034273147583,-0.0762140601873398,2.69577264785767,5.34981922201202
0.135432815,5.02664041519165,-0.0890486985445023,3.15090799331665,5.93323391724086
0.145433415,5.38509035110474,-0.101810276508331,3.60510969161987,6.48123285421652
0.155433415,5.697669506073,-0.114172324538231,4.05158281326294,6.99226690085928
0.165433415,5.96758127212524,-0.126005083322525,4.48503541946411,7.4661533760224
0.175433568,6.19856405258179,-0.137291043996811,4.90127801895142,7.9033898653538
0.185433568,6.39465951919556,-0.147925540804863,5.29730463027954,8.30511822179804
0.195433568,6.56002759933472,-0.157964110374451,5.67123889923096,8.67305398440192
0.205433568,6.69867277145386,-0.167248368263245,6.02217864990234,9.00926326660752
0.215433568,6.81430673599243,-0.175929397344589,6.34981536865234,9.31589408811711
0.225432845,6.91025972366333,-0.184021517634392,6.65429735183716,9.59506261647641
0.235432845,6.98949289321899,-0.191451668739319,6.93617057800293,9.84886424583949
0.245432845,7.05462312698364,-0.198244690895081,7.19613456726074,10.0792539967681
0.255433178,7.10786485671997,-0.204506680369377,7.43505620956421,10.288033176613
0.265433178,7.15123414993286,-0.210204884409904,7.65425872802734,10.4772139730073
0.275433178,7.18637609481812,-0.21550065279007,7.85468673706055,10.6483118683142
0.285433178,7.2147650718689,-0.220253691077232,8.03786087036133,10.8031733348113
0.295434898,7.23759984970093,-0.22455957531929,8.20505046844482,10.9433144785748
0.305434398,7.25585222244263,-0.228485807776451,8.357421875,11.07005409359
0.31543462,7.2703595161438,-0.231990605592728,8.49599933624268,11.184540753044
0.325434977,7.28181505203247,-0.235306590795517,8.62179374694824,11.287848646159
0.335434977,7.29079103469849,-0.238234460353851,8.73598289489746,11.381115354379
0.345435143,7.29777383804321,-0.240904569625855,8.83952903747559,11.4652872448652
0.355435976,7.30316019058228,-0.243365690112114,8.93346309661865,11.5413230839049
0.365435742,7.30724859237671,-0.245482832193375,9.01871395111084,11.6100536236339
0.375435742,7.31033182144165,-0.247455596923828,9.09592056274414,11.6721016314879
0.385435742,7.312584400177,-0.249237507581711,9.16577911376953,11.7280653437518
0.395435742,7.3141942024231,-0.251008331775665,9.22881507873535,11.7784323987054
0.405435742,7.31530141830444,-0.252349495887756,9.2857666015625,11.8238224144062
0.415435742,0.0564842224121094,-0.0238096229732037,-0.481746584177017,0.485630658931096
0.425435808,0.0616970062255859,-0.0124020930379629,-0.437438666820526,0.441942213098773
0.435435808,0.0618715286254883,-0.0079939216375351,-0.37845104932785,0.383558581672934
0.445434674,0.0762538909912109,0.00390723720192909,-0.354683786630631,0.362809193506028
0.455434674,0.052189826965332,0.00359101034700871,-0.310597985982895,0.314972669116884
0.465434674,0.0519809722900391,-0.0109963184222579,-0.262702822685242,0.26802185273939
0.47543434,0.0636825561523438,-0.0108981179073453,-0.244462266564369,0.252855762650978
0.48543434,0.0753278732299805,-0.0154433604329824,-0.23625673353672,0.248455287744608
0.49543474,0.0678215026855469,-0.00536415725946426,-0.203949049115181,0.214997081479299
0.50543474,0.0794382095336914,-0.00735240802168846,-0.183374464511871,0.199976701824617
0.51543474,0.0647153854370117,-0.0117120649665594,-0.174448803067207,0.186434005668556
0.525435173,0.064366340637207,-0.00423427671194077,-0.152888715267181,0.165939489460308
0.535435239,0.0736064910888672,-0.00615092366933823,-0.133041277527809,0.15217007234878
0.545434805,0.0660877227783203,0.00388356484472752,-0.126633748412132,0.142894280553263
0.555434571,0.0729598999023438,-0.000570785254240036,-0.123887658119202,0.143776300633403
0.565434771,0.0630989074707031,-0.00506137497723103,-0.114915251731873,0.131196816734462
0.575434771,0.0484333038330078,0.00954845733940601,-0.104528874158859,0.115599496065777
0.585434771,0.0649404525756836,-0.00707183871418238,-0.0783785581588745,0.102031718904457
0.595433337,0.0431289672851563,0.00497165136039257,-0.0748398303985596,0.0865206642971408
0.60543377,0.0620641708374023,-0.0141489375382662,-0.0553723573684692,0.0843697321065884
0.615433803,0.0642557144165039,-0.00431494042277336,-0.0582107901573181,0.0868096287099923
0.625433469,0.0544824600219727,0.0151502210646868,-0.0569026172161102,0.080223285238127
0.635433469,0.0519123077392578,0.00547346286475658,-0.0586351454257965,0.078504310516376
0.645433502,0.0684995651245117,-0.00427080877125263,-0.0463408827781677,0.0828124848465961
0.655433502,0.0755338668823242,0.000496258959174156,-0.0370376408100128,0.0841272735557427
0.665433502,0.0610284805297852,0.00293079204857349,-0.0257663130760193,0.0663096363082908
0.675433702,0.053736686706543,-0.00203442759811878,-0.0223649740219116,0.0582405568040856
0.685433702,0.0536355972290039,-0.0116664730012417,-0.014525979757309,0.0567792917383652
0.695433702,0.0535287857055664,-0.00424128957092762,-0.0238677859306335,0.0587621531393078
0.705433702,0.0606317520141602,-0.0256368368864059,-0.0310579836368561,0.0727877400764306
0.715433702,0.060546875,-0.0250835865736008,-0.0288426280021667,0.0716031254746071
0.725433635,0.0461292266845703,-0.00308744423091412,-0.014947384595871,0.0485887041672482
0.735433635,0.0556325912475586,-0.0170560572296381,-0.00606092810630798,0.0585032404798953
0.745434435,0.0699625015258789,-0.00448825117200613,-0.0238116681575775,0.0740397971282216
0.755433935,0.0627145767211914,0.000732405111193657,-0.00319850444793701,0.0628003581300981
0.765433935,0.0531015396118164,-0.00131634250283241,-0.0117500722408295,0.0544019343810014
0.775434201,0.0770082473754883,-0.00337298307567835,-0.0155254900455475,0.0786300707097965
0.785434201,0.062617301940918,-0.0199044309556484,-0.00236031413078308,0.0657471212816519
0.795433801,0.0577869415283203,0.00217120721936226,-0.00617548823356628,0.0581565250587571
0.805433801,0.0673274993896484,0.000114275142550468,-0.0171568691730499,0.0694792299373882
0.815434034,0.0577144622802734,0.0195955112576485,-0.0281774699687958,0.0671484402766894
0.825434034,0.0696334838867188,-0.00453033670783043,0.00654429197311401,0.0700869016744042
0.835433967,0.0576496124267578,0.0123018473386765,-6.37173652648926E-05,0.0589475811276606
0.8454344,0.0528383255004883,-0.0142240487039089,-0.00660625100135803,0.0551167375260879
0.8554344,0.0767612457275391,0.00262800976634026,0.00603926181793213,0.0770432863024491
0.865434133,0.0456275939941406,0.00978168286383152,-0.00362929701805115,0.0468052395591343
0.875434133,0.0336580276489258,0.000172141939401627,-0.00346681475639343,0.0338365373910851
0.885434133,0.0671567916870117,0.00966273248195648,-0.00985738635063171,0.0685607113030208
0.895434133,0.0623302459716797,0.00456453114748001,-0.00669336318969727,0.0628545592481214
0.905434133,0.0311813354492188,-0.0147834364324808,-0.00135901570320129,0.0345350922516714
0.915433899,0.0311717987060547,-0.0147542096674442,-0.00132977962493896,0.0345128389347008
0.925433965,0.0646791458129883,-0.00263707060366869,-0.0104208588600159,0.0655663049427593
0.935433965,0.0502872467041016,0.00231821462512016,-0.0050128698348999,0.0505896250639293
0.945433765,0.071812629699707,0.0167222954332829,0.00751811265945435,0.074116199085662
0.955433765,0.0622282028198242,-0.00509820133447647,0.00314530730247498,0.0625158687139437
0.965433765,0.0550270080566406,0.00650426559150219,-0.0107785761356354,0.056448691659436
0.975433131,0.0621929168701172,0.00157616287469864,-0.000793784856796265,0.0622179499229906
0.985433131,0.0574016571044922,0.0136249121278524,-0.007865309715271,0.0595184976771973
0.995433131,0.0597982406616211,0.0112020708620548,0.00891861319541931,0.0614886789511139
1.005433131,0.0669622421264648,0.00590162351727486,-0.00760754942893982,0.0676509115907296
1.015433131,0.05499267578125,0.00113718770444393,-0.0075625479221344,0.0555218850232176
1.025433131,0.054962158203125,0.0221726708114147,0.00509351491928101,0.0594845363055781
1.035433131,0.138757705688477,-0.0167059283703566,-0.545312762260437,0.562937649846547
1.045433264,0.277276039123535,-0.227538883686066,-3.88345909118652,3.89998852028828
1.055433764,0.240495681762695,0.16209551692009,-4.40182828903198,4.41137228259805
1.065433964,0.301350593566895,0.121472410857677,-3.88515210151672,3.8987144777173
1.075433964,0.619741439819336,0.0686065033078194,-2.63951325416565,2.71216085869581
1.08543353,0.707403182983398,-0.0327808633446693,-0.910902619361877,1.15379262879297
1.09543353,0.732924461364746,0.0216214656829834,-0.621391177177429,0.961130973863102
1.10543353,0.950420379638672,0.0927612781524658,-0.913115561008453,1.32124319506773
1.115433296,1.07523250579834,0.0586778111755848,-1.28047871589661,1.673079128109
1.125433296,1.36478424072266,0.0518932715058327,-1.85979962348938,2.30741924558233
1.135433296,1.71576642990112,0.0359977819025517,-2.46223998069763,3.00129572098842
1.145433296,1.98370981216431,-0.135163381695747,-3.21633577346802,3.78129469445566
1.155433296,2.90054321289063,-0.0621866993606091,-3.83856534957886,4.81161117074216
1.165433362,4.16162204742432,-0.191881015896797,-4.49271535873413,6.12702274228481
1.175433428,5.25284099578857,-0.218547761440277,-5.0622239112854,7.29837054273468
1.185433428,7.24103164672852,-0.223374754190445,-5.71731090545654,9.22876370806978
1.195432994,7.46133375167847,-0.242617517709732,-6.29447507858276,9.76477245657754
1.205432994,9.10929012298584,-0.0828977674245834,-7.4144458770752,11.7456394567792
1.215432994,8.83422565460205,-0.513668775558472,-8.07279396057129,11.9782052435767
1.225432927,10.8486366271973,-0.970351040363312,-8.67527389526367,13.924613997104
1.235432927,12.4586791992188,0.305310249328613,27.1952781677246,29.914796612334
1.245432927,6.57537221908569,-1.22962689399719,17.2385292053223,18.4909272693587
1.255432927,2.40082192420959,-0.388428092002869,-9.28238773345947,9.59570447276808
1.265432927,1.28876221179962,-0.248395502567291,-9.89482021331787,9.98148663367047
1.27543336,0.875301837921143,-0.223892629146576,-9.23069000244141,9.27480022092261
1.28543336,0.52846097946167,-0.271012604236603,-9.2487325668335,9.26778144602446
1.29543336,-0.00984564423561096,-0.575767636299133,-2.50497150421143,2.57030884226607
1.30543336,1.31349992752075,0.00123366713523865,3.69102954864502,3.91777777706984
1.31543356,2.2907919883728,0.393852382898331,3.72846698760986,4.39366745569169
1.32543356,2.21784925460815,-0.155529603362083,6.24317073822022,6.627233634048
1.33543356,1.90852832794189,-0.585798382759094,13.5085096359253,13.6552360912467
1.34543356,1.38201403617859,-0.0715442299842835,-12.7899904251099,12.8646389940581
1.35543356,3.4361424446106,2.98125123977661,-7.27957153320313,8.58411879934949
1.36543336,2.20453786849976,-0.339963316917419,-9.38538455963135,9.64681323560612
1.37543336,-15.3069038391113,-5.5061731338501,-12.9180498123169,20.7724639528688
1.385433793,2.27258443832397,2.28436660766602,-5.19818925857544,6.11589260823806
1.395433793,0.959822654724121,0.511736035346985,-5.81766033172607,5.91847151160952
1.405433793,0.175539016723633,-0.28954553604126,5.01406860351563,5.02548848616678
1.415434359,1.9311466217041,-1.51327872276306,12.7298612594605,12.9641315733989
1.425434392,-1.45747780799866,0.072501614689827,2.5156774520874,2.90828662409367
1.435434392,0.733352184295654,0.0224883854389191,-3.60460186004639,3.6785140645566
1.445434392,-0.077986478805542,0.0202532485127449,-3.1555643081665,3.15659281313351
1.455434392,0.0530905723571777,-0.18969489634037,-0.752182960510254,0.777548692142664
1.465434392,0.326185941696167,-0.261450290679932,2.56685352325439,2.60067116969838
1.475434325,0.147534370422363,-0.112031802535057,0.0315437316894531,0.187916263915802
1.485434325,0.0750477313995361,-0.158181339502335,-0.990780830383301,1.00613127970956
1.495434758,0.114923477172852,-0.125693619251251,0.616336822509766,0.639435196331428
1.505434758,0.124853372573853,-0.177429348230362,0.0440311431884766,0.22137813764462
1.515434758,0.108104944229126,-0.153160005807877,-0.525783538818359,0.558205155868529
1.525434758,0.145303249359131,-0.129378661513329,0.437676429748535,0.478970280379406
1.535434758,0.131790637969971,-0.136266961693764,-0.00631046295166016,0.189676775195188
1.545434758,0.131237030029297,-0.140985518693924,-0.0345430374145508,0.195686729151796
1.555434758,0.131347417831421,-0.164849132299423,0.274337768554688,0.345960390574441
1.565434958,0.129648447036743,-0.164593696594238,0.273880958557129,0.344834140185926
1.575434958,0.105029582977295,-0.166999071836472,0.0660505294799805,0.208044648427238
1.585434958,0.132538080215454,-0.147571325302124,-0.015681266784668,0.198971206174651
1.595434958,0.0968871116638184,-0.161794930696487,-0.12813663482666,0.227999362258624
1.605434958,0.132968425750732,-0.149660259485245,0.116117477416992,0.231434794440042
1.615434758,0.137003183364868,-0.149372607469559,-0.0588607788085938,0.211060748118443
1.625434758,0.125527143478394,-0.149325042963028,0.0394353866577148,0.199023068830221
1.635434758,0.115234613418579,-0.158713907003403,0.0344562530517578,0.199139031283124
1.645434758,0.109785556793213,-0.148908123373985,-0.0255765914916992,0.186763646675393
1.655434758,0.117358922958374,-0.160724818706512,0.0559329986572266,0.206722239937991
1.665434758,0.128908634185791,-0.139014422893524,-0.0471296310424805,0.195355183863306
1.675434791,0.121816635131836,-0.138788804411888,0.0103569030761719,0.1849564550543
1.685434791,0.1167311668396,-0.155341804027557,-0.00408649444580078,0.19435519243675
1.695434791,0.107859373092651,-0.121009841561317,-0.0117912292480469,0.162530179369294
1.705434791,0.105165958404541,-0.121948510408401,0.0215969085693359,0.162473826992922
1.715434224,0.0934033393859863,-0.107389539480209,-0.0310525894165039,0.145674157995491
1.72543419,0.0782735347747803,-0.0869715213775635,0.000479698181152344,0.117008640224608
